File: dati/raman/20250318_test_PCA_ZnO/peaks_table_aree.txt
103.636,308.697,382.769,429.597,515.936,948.341,960.934
-3.33559,-7.13538,49182.5,97071.7,0.29732,0.00553481,604727,48043.2,92430.8
-3.33559,-6.6414,23956.2,42295,0.239759,0.0040601,476954,60674,49340.8
-3.33559,-6.14743,31109.4,59026.6,0.242773,0.00429094,493879,51587.7,61795
-3.33559,-5.65345,6057.55,36756.2,0,42303.9,490540,30797.4,65571.5
-3.33559,-5.15947,20320.5,44924.5,0.256018,0.000128408,479544,37908.4,65398.6
-3.33559,-4.66549,11526.6,46930.1,1132.92,0.000360853,587164,49014.2,63129.5
-3.33559,-4.17151,66398.4,138148,0.362609,0.0030884,741296,34016.8,131998
-3.33559,-3.67753,46820.6,100125,0.365394,0.00364238,741835,72188.3,78867.9
-3.33559,-3.18355,42306.3,69441.1,0.386903,0.00646833,823817,88722.9,79415
-3.33559,-2.68957,8134.95,19543,0.340327,0.00966591,749936,131012,41951.6
-3.33559,-2.19559,30993.8,37824,0.371136,0.00962345,810714,139357,45193.5
-3.33559,-1.70161,21922.2,71728.7,0.393137,0.00932298,826901,71727,115562
-3.33559,-1.20763,38749.3,52105.5,0.380902,0.00880812,806651,107145,74196.6
-3.33559,-0.713653,20574.2,70138.2,0.302666,0.0058226,628602,46050.7,96333.7
-3.33559,-0.219674,79355.7,177370,0.419312,0.00375672,812485,36698.6,154194
-3.33559,0.274305,42009.5,85356.6,0.374694,0.00409229,756160,88655.8,75880.7
-3.33559,0.768285,8710.48,50826.8,0,59107.8,692057,39067.3,91078.9
-3.33559,1.26226,9129.75,62467.8,0.349433,0.00642202,760232,89424,71710.4
-3.33559,1.75624,74915,39554.4,1896.21,0,657352,33716.4,78600.7
-3.33559,2.25022,26922,86531.1,0.368335,0.00557847,724622,36865.8,117250
-3.33559,2.7442,78484.2,156859,0.443466,0.00359483,914825,63624.4,126560
-3.33559,3.23818,76932.5,116743,0.39146,0.0043603,811778,61156.4,111582
-3.33559,3.73216,80011.4,164525,0.40173,0.005207,825357,15027.3,184033
-3.33559,4.22614,48984.6,90051,0.368553,0.00636488,791410,66900.9,102743
-3.33559,4.72012,29752.1,51432.1,0.294101,0.00516326,626562,80893.2,54158
-3.33559,5.2141,0.00092277,68153.4,10126.1,26022.5,634070,56587.1,66901.2
-3.33559,5.70808,46706.5,107437,0.323751,0.00465696,663594,28482.8,123808
-3.33559,6.20206,45063.8,80465.7,0.311658,0.00494055,664338,65986.3,76592.7
-3.33559,6.69604,41070.2,138464,0.354085,0.00268299,730147,25773.7,141649
-3.33559,7.19002,8996.73,69213.8,750.825,0,707472,46420.3,96774.7
-3.33559,7.68399,19198,55593.8,0.438639,0.00685426,858750,103932,76067.3
-3.33559,8.17797,79028.4,144218,0.400269,0.00202544,764071,32899.5,131621
-3.33559,8.67195,57476.3,116120,0.374282,0.0035146,723868,27211.9,136871
-3.33559,9.16593,58580.1,124601,0.351699,0.00327033,685841,28960.2,124934
-3.33559,9.65991,30775.6,77870.6,0.336278,0.00471772,660207,31527.3,117428
-2.8393,-7.13538,48459.6,180173,0.31066,0.00236558,588164,66267.4,67801.7
-2.8393,-6.6414,32246.5,33614.2,0.253639,0.00463968,499077,75522.3,43635.7
-2.8393,-6.14743,3659.46,54379,0,22.2253,468508,32253.1,70527.7
-2.8393,-5.65345,27687.8,38867,0.245283,0.00441927,498487,63182.6,48594.9
-2.8393,-5.15947,41579.1,86286.9,0.259609,0.00309824,531707,58324.2,57087.8
-2.8393,-4.66549,35663,95264,0.298098,0.00400966,609780,38461.9,95712
-2.8393,-4.17151,87970.6,153055,0.34572,0.00169234,627642,15034.4,155084
-2.8393,-3.67753,60735.1,117280,0.34802,0.00273675,667618,23707,123572
-2.8393,-3.18355,9.64839e-05,556775,2725.14,0.00141056,673107,40360,114627
-2.8393,-2.68957,559.511,44777.2,0.333671,0.00832875,717123,73861.4,75651
-2.8393,-2.19559,37193.3,74511.7,0.197287,0.00529761,805149,64819.4,115470
-2.8393,-1.70161,44190.6,78854.8,2.19149,0.00513944,776612,61307.7,120148
-2.8393,-1.20763,48195.1,85805.9,0.218515,0.00472457,743998,59210,118479
-2.8393,-0.713653,79671.5,39478.3,548.808,5497.68,671071,33936.3,93637.6
-2.8393,-0.219674,43641,86201.2,0.387892,0.00592129,775900,68807.2,102954
-2.8393,0.274305,47754.4,74888.7,1.19126,0.00336668,695718,57545.6,102987
-2.8393,0.768285,16494.5,47933.5,0.325586,0.0063878,662258,75823.9,70730.4
-2.8393,1.26226,49937.7,85151.3,0.320159,0.00332748,644255,50584.1,89740.6
-2.8393,1.75624,12477.4,25557.8,0.305751,0.0071189,659003,104936,33479.9
-2.8393,2.25022,30641.9,46487.5,0.345631,0.00554866,707205,108333,38585.3
-2.8393,2.7442,62643.9,128818,0.40327,0.0045409,813720,50174.4,117433
-2.8393,3.23818,20407.7,74246.9,0.430728,0.00815396,890881,76153.5,112135
-2.8393,3.73216,0.00508096,93668.8,2759.63,21205.8,817956,57228.7,86384.3
-2.8393,4.22614,16925.6,120246,6057.63,0,774167,53228.1,102859
-2.8393,4.72012,21217.2,78202.4,288.186,0,627948,34690.6,89461.6
-2.8393,5.2141,0.000633264,0.0158508,845.18,9237.73,613066,27117.4,103463
-2.8393,5.70808,52622.4,87075.6,0.316212,0.00548843,678335,55403.7,92159.9
-2.8393,6.20206,24735.6,64449.4,0.34736,0.00721711,727183,116174,48880.9
-2.8393,6.69604,50923.2,95560.8,0.338197,0.00507567,718181,62818,96621.2
-2.8393,7.19002,71760,136289,0.380651,0.00459624,802970,16066.2,170428
-2.8393,7.68399,70745.8,126324,0.386567,0.00632947,1.07611e+06,92567.8,146375
-2.8393,8.17797,28111,84813.8,0.467614,0.00871382,947226,95316.3,105883
-2.8393,8.67195,26638.5,73126.8,0.375257,0.00498552,719603,54744,95626.8
-2.8393,9.16593,16074.7,98960,0.3926,0.00533898,786603,103844,67662.6
-2.8393,9.65991,66312.2,143557,0.373823,0.00345169,742183,34443.4,131416
-2.34301,-7.13538,6965.7,43801.8,0.293373,0.00678832,591806,64863.1,72247.6
-2.34301,-6.6414,47630.8,82950.1,0.257678,0.00475024,517126,40345,84642.5
-2.34301,-6.14743,18216.3,8927.02,0,0.000128378,437725,34558,62577.8
-2.34301,-5.65345,33034.2,31723,0.229566,0.00547023,457511,56206.7,53133
-2.34301,-5.15947,0.00177586,91289.5,10918.3,4933.55,497280,54832.3,53795.2
-2.34301,-4.66549,13556.4,78366.6,0.308086,0.00559847,627733,98162.1,44940.7
-2.34301,-4.17151,41684.8,91248.4,0.303742,0.00243745,582461,34987.5,93385.6
-2.34301,-3.67753,75608.9,114288,0.333269,0.00209784,639505,22543.7,122655
-2.34301,-3.18355,35699,65357.9,0.372916,0.00597674,716047,44396.8,103343
-2.34301,-2.68957,32872.8,70897.1,0.360838,0.0062164,740983,48953.1,104054
-2.34301,-2.19559,12220.2,48733.5,0.34749,0.00784114,722586,57275.5,101758
-2.34301,-1.70161,112592,103272,8485.37,0.00115066,757422,68106.6,90886
-2.34301,-1.20763,23081.3,66538.6,1460.71,7261.05,694689,61246.5,79357.6
-2.34301,-0.713653,9923.47,48051.4,0,75141.6,684609,32993.8,91934.4
-2.34301,-0.219674,53650,62604.9,0.332398,0.00266443,640394,52930.6,85346.7
-2.34301,0.274305,66821.5,81986.4,0.346222,0.00297918,668807,52762.9,103263
-2.34301,0.768285,35000.6,63516.7,0.34278,0.00587627,682671,70199.7,81582.8
-2.34301,1.26226,204767,0.00634489,892.986,22446.7,584154,33945,87007.5
-2.34301,1.75624,36489.7,75826.2,0.349034,0.00444047,733290,56642.9,90007.2
-2.34301,2.25022,73919.6,51465.4,0,0.00172102,704045,52510,84409.4
-2.34301,2.7442,50025.3,91453.3,0.375032,0.00398445,729215,56241.3,91537.2
-2.34301,3.23818,41365.5,97022.8,0.41002,0.00542842,785796,34276.6,136452
-2.34301,3.73216,61477.8,112786,0.418357,0.00541727,848282,63792.4,115653
-2.34301,4.22614,41745.1,0.00146879,1520.69,74136.8,693380,57334.5,90148.8
-2.34301,4.72012,20642.9,70599.2,0.339263,0.00472406,677575,55224.3,84055.8
-2.34301,5.2141,55796.8,87129.5,0.394417,0.00200746,612430,46912.1,82320.2
-2.34301,5.70808,8769.12,70715.4,0.308208,0.00417387,638168,79775.2,54427.5
-2.34301,6.20206,84915.1,132760,8245.19,0.000200928,659430,75999.7,65205.4
-2.34301,6.69604,33032.9,91590.3,0.328539,0.00460821,694502,91591.6,59927.9
-2.34301,7.19002,42455,82991.7,0.387965,0.00621683,805372,83515.8,89869.7
-2.34301,7.68399,9584.26,75542.4,2484.51,272.644,754092,71805,93658.3
-2.34301,8.17797,43391.4,99004,0.365827,0.00458444,745474,73085.3,81295.7
-2.34301,8.67195,44529.7,72387.7,0.349285,0.00474785,673469,47979.1,103195
-2.34301,9.16593,38815.5,74135.3,0.350179,0.00526729,708842,70741.6,86273.6
-2.34301,9.65991,27432.4,97896.5,0.377338,0.00684213,764912,32574.6,138100
-1.84673,-7.13538,24871.3,55515,293.592,0.000752979,640597,38243.3,96735.7
-1.84673,-6.6414,60990.7,87740.4,0.275203,0.00269844,595887,53318.4,85331.7
-1.84673,-6.14743,49232.3,48066.9,0.27839,0.00286293,601357,56594.7,80691.8
-1.84673,-5.65345,31015.7,50435,0.246473,0.0029223,517771,47825.3,71515.6
-1.84673,-5.15947,954.029,0,2459.38,114204,470279,32299.2,64137.8
-1.84673,-4.66549,4903.65,67202.4,0,4350.84,478428,29360.7,80482.5
-1.84673,-4.17151,41770.7,46666.4,0.301267,0.00348409,590795,47730.9,86376.6
-1.84673,-3.67753,55508,60435.6,0.341434,0.00352188,650531,50467.5,96037.3
-1.84673,-3.18355,44142,61461.3,0.36144,0.00426439,684710,52541.2,100496
-1.84673,-2.68957,64714.2,80283,0.417748,0.00380507,772250,58891.6,104837
-1.84673,-2.19559,56782.2,41376.4,772.521,0.000733907,751638,49352.6,104675
-1.84673,-1.70161,6477.44,37993,1014.01,92567.9,704104,35256.3,93645.8
-1.84673,-1.20763,60924.1,122414,0.363876,0.00514017,727133,54853,107689
-1.84673,-0.713653,4343.42,73421.2,539.395,2858.83,772615,86630.6,79937.7
-1.84673,-0.219674,21682.7,19696.3,0.318859,0.00812619,643509,92232.7,49432
-1.84673,0.274305,82727.4,106189,0.337845,0.00286937,669015,55201.9,93054.6
-1.84673,0.768285,29574.6,26477.9,0.332484,0.00803525,675050,93892.8,56862.7
-1.84673,1.26226,0.00174152,214525,9268.27,0,611698,59980,66527
-1.84673,1.75624,7703.69,71999.3,0,549.409,655536,26622.8,105220
-1.84673,2.25022,50990,85060.6,0.359518,0.00251757,672433,42997.4,94095.2
-1.84673,2.7442,50882,105481,0.30934,0.00232068,585121,22136.2,105900
-1.84673,3.23818,58828.8,129731,0.352704,0.00327965,687836,30190.2,119114
-1.84673,3.73216,42229.4,99957,0.362798,0.00448883,731240,82158,68921.5
-1.84673,4.22614,25367.4,68935.5,0.355433,0.00532981,725493,60761.8,92528.1
-1.84673,4.72012,0.00626401,0,14984.6,38197.1,618670,631.215,115676
-1.84673,5.2141,56241.9,59853.9,0.274438,0.00223822,543308,40802.2,76898.8
-1.84673,5.70808,31849.1,59527.2,0.293698,0.00533802,586849,40603.7,87371.9
-1.84673,6.20206,66524.3,81971.5,0.359394,0.00265935,694219,51258.4,97478.5
-1.84673,6.69604,44318.9,102091,0.368812,0.0034508,743044,90827.9,68378.6
-1.84673,7.19002,34285.4,57721.8,0.359199,0.00454479,725012,54681.9,103741
-1.84673,7.68399,60403.9,65567.9,0.440063,0.00811987,895680,112247,80312.1
-1.84673,8.17797,77845.1,101108,0.380501,0.00267686,778205,63494.2,102450
-1.84673,8.67195,8620.74,44195.5,0,1167.19,586396,29167.3,77737.9
-1.84673,9.16593,0.00165278,29778.6,0.328312,0.00698795,644031,88503.4,57002.1
-1.84673,9.65991,73765.2,131111,0.34801,0.00349273,694706,35728.3,117702
-1.35044,-7.13538,0.00276181,58754.1,0.337857,0.00956766,755906,116009,55892.6
-1.35044,-6.6414,0.00326989,20355.9,0.338,0.0132464,768596,92922,75640
-1.35044,-6.14743,65847.5,73133.7,0.317095,0.00373013,708389,67663.3,96164.2
-1.35044,-5.65345,37557.2,43300.4,0.27553,0.00366352,599096,60519.1,80230
-1.35044,-5.15947,51695.4,66060.8,0.255114,0.00266954,532733,50487.3,76109.7
-1.35044,-4.66549,57239.9,67260.8,0.267767,0.00242763,555627,49344,78745.9
-1.35044,-4.17151,13749.7,44909.7,0,0,559230,41877.2,94594.8
-1.35044,-3.67753,11535.2,48035.2,0,0,622620,22236.6,103993
-1.35044,-3.18355,3464.08,32293.1,672.461,81401.8,615777,33562.7,77199.5
-1.35044,-2.68957,53206.6,71473,0.323265,0.00338988,640410,51725.9,94574.7
-1.35044,-2.19559,7724.82,73471.7,0,3884.57,692099,40178.2,109809
-1.35044,-1.70161,56737.1,111114,0.410451,0.00473412,738385,30769.3,147181
-1.35044,-1.20763,24256.2,52408.2,0.391671,0.0073185,759483,68765.8,112943
-1.35044,-0.713653,8608.2,69782.1,270.236,0.00035885,719979,50759.9,116588
-1.35044,-0.219674,87474.6,90789.8,0.351919,0.00310612,688417,65250.3,94832.7
-1.35044,0.274305,6867.23,29547.6,276.446,82990.1,601398,26121.2,86329.5
-1.35044,0.768285,5910.85,23400,9.31317,115499,562988,30582.8,76640.4
-1.35044,1.26226,8248.7,66716.7,479.911,0,651612,36940.1,108619
-1.35044,1.75624,9849.01,47986,0,1022.4,567089,32448.6,77171.2
-1.35044,2.25022,21196.4,45591.8,0.336021,0.00482895,600659,29578.1,91485.1
-1.35044,2.7442,57282.9,4322.47,0.364809,0.00202722,638440,4259.74,113403
-1.35044,3.23818,16098.6,47599,0.349245,0.00534866,668232,70126.4,71139.7
-1.35044,3.73216,31331.9,56017.9,0.336612,0.00608229,660672,49562.8,91728.2
-1.35044,4.22614,54148.1,70285.2,0.34652,0.00294255,685150,52267.7,97066.9
-1.35044,4.72012,28034.1,67137.7,0.32595,0.00533994,630408,35120.7,100586
-1.35044,5.2141,9987.46,0.000283609,0.261743,93876.4,485656,43900.9,59709.1
-1.35044,5.70808,41522.4,80938.2,0.317574,0.00539482,657505,53824.7,89790.5
-1.35044,6.20206,31307.8,25742.3,0,0.00070431,600541,51670.9,72905.7
-1.35044,6.69604,8433.99,55633.6,0,634.218,675281,39244.4,93968.8
-1.35044,7.19002,45034.3,76792.2,1.02932,0.00410321,709432,56820.6,99539.8
-1.35044,7.68399,11841.3,45941.1,712.043,5019.51,648840,47003.9,83801.8
-1.35044,8.17797,57900.8,74794.4,0.368637,0.00307647,752702,63266.6,98152.3
-1.35044,8.67195,34572.5,37065.1,0.317923,0.00406632,635220,54389.1,87268
-1.35044,9.16593,51230.2,76958.7,0.177327,0.00346104,656554,52319.8,90137.3
-1.35044,9.65991,21335.4,46067.9,0.314172,0.00604513,622164,59460.9,73871.9
-0.854155,-7.13538,32173.2,102517,0.371685,0.00674333,810761,44441.8,147266
-0.854155,-6.6414,21446.4,115245,0.394168,0.00888327,905795,112894,90954.5
-0.854155,-6.14743,55927.1,104826,0.369698,0.00503037,827333,70572.9,122453
-0.854155,-5.65345,41956,71974.4,0.296971,0.00415549,638544,57283.7,94028.2
-0.854155,-5.15947,43896.3,55795.3,0.282752,0.00421616,612300,55618.5,90170.5
-0.854155,-4.66549,51063.9,74777.6,0.297415,0.00336058,647442,56407.6,94443.7
-0.854155,-4.17151,78331.3,22838.1,1356.75,0,551166,33443.1,87128.8
-0.854155,-3.67753,24442.1,44560.6,3.11125,0.00319912,544000,48866.6,68490.6
-0.854155,-3.18355,0.00150896,21482.4,0.274522,52950.5,595062,63571.8,53036
-0.854155,-2.68957,6504.05,12152.3,0.290114,0.00846125,634088,97361.9,36802.7
-0.854155,-2.19559,0.000867833,0,0.255858,140803,504262,43738,74594
-0.854155,-1.70161,18571,52100.2,0,2367.6,686961,56346.7,129328
-0.854155,-1.20763,58080.1,112978,0.502511,0.00611291,884749,53160,164698
-0.854155,-0.713653,69501.1,146475,0.520784,0.00402739,962160,82922.6,148694
-0.854155,-0.219674,65111,75370.9,0.380693,0.00376509,706732,67532.9,108546
-0.854155,0.274305,13924.9,484.795,0.312115,107496,633430,69329.6,69414.9
-0.854155,0.768285,9533.16,31526.1,476.04,45190.1,568162,26628,70432.3
-0.854155,1.26226,99865.8,161567,0.689619,0.00721745,1.26903e+06,51182.2,298456
-0.854155,1.75624,126118,202338,0.645588,0.00646556,1.22003e+06,93210.1,209938
-0.854155,2.25022,5459.89,38649.1,0,188559,924893,50635.4,136919
-0.854155,2.7442,22592.2,15357,0.287194,0.00179283,498865,43071.4,63848.3
-0.854155,3.23818,7404.81,33251,200.589,82503.9,629501,36678.1,74098.6
-0.854155,3.73216,0.00163852,0,0.296588,240399,572456,88235.5,37863
-0.854155,4.22614,48664.1,54759.9,8190.12,0.00215474,608273,54411.2,70434.7
-0.854155,4.72012,13407.8,36308.7,0,0,619915,46559.9,101830
-0.854155,5.2141,47735.5,73253.1,18.0205,0.00365401,677542,50989.5,96137.5
-0.854155,5.70808,64064.7,83718.9,0.374902,0.00356885,796093,66265,101944
-0.854155,6.20206,33738.8,62089.4,0.2833,0.00464059,585433,56254.1,68096
-0.854155,6.69604,27020.2,55047,0.275239,0.00360169,553070,41911.8,83490.4
-0.854155,7.19002,14338.2,51043,0.00319593,30505.8,521992,32433.2,70709.6
-0.854155,7.68399,43618.4,49382.7,0.312844,0.00675956,672548,95167.8,53146.5
-0.854155,8.17797,18027.9,60374.6,0.30337,0.00561583,628158,42086.3,94687.6
-0.854155,8.67195,29990.8,53734.7,1380.49,1081.87,575480,40030.6,77921.9
-0.854155,9.16593,15469.3,50657.6,0,1116.69,672145,44587.3,93245.4
-0.854155,9.65991,55280.4,67005.9,0.303166,0.00276966,622377,47077.6,88257
-0.357869,-7.13538,44498,119423,0.463864,0.00627474,913283,45747.3,165179
-0.357869,-6.6414,75258.6,97532.6,0.453334,0.00973473,1.00267e+06,132440,92799.5
-0.357869,-6.14743,0.00280752,67271.3,0.395374,0.0088385,860548,120937,67797.5
-0.357869,-5.65345,54710.1,44188.7,0.308663,0.00926027,684321,62481.2,86960
-0.357869,-5.15947,0.002882,51265.1,0.304106,0.0103653,701885,60609.4,94044
-0.357869,-4.66549,50193.3,51631.4,0.2988,0.00285549,658155,68168.7,82148
-0.357869,-4.17151,51404.9,74228.6,0.305803,0.00348698,660504,59233.1,93602.9
-0.357869,-3.67753,4640.01,47644.4,0.00558755,0,559734,21494.9,81216.5
-0.357869,-3.18355,96532.8,90726,0.471944,0.00542291,893939,85638.6,142913
-0.357869,-2.68957,115531,110466,0.533033,0.00721232,1.05017e+06,96753.1,178474
-0.357869,-2.19559,114361,107087,0.507516,0.00635164,1.02324e+06,106673,162655
-0.357869,-1.70161,74795.9,124643,0.49934,0.00767622,941984,84353.9,145212
-0.357869,-1.20763,100225,137926,0.483356,0.00560771,931819,59867,167264
-0.357869,-0.713653,34383.6,99620.1,0.564314,0.00897025,1.09644e+06,104093,156395
-0.357869,-0.219674,11156,105864,0,2057.66,928059,55434.4,151807
-0.357869,0.274305,33402.3,82927.8,0.576582,0.00798456,1.08265e+06,93941.5,152662
-0.357869,0.768285,99677.3,184678,0.590136,0.00590298,1.13153e+06,73355.7,196881
-0.357869,1.26226,62136.1,108382,0.506906,0.00621342,901557,14529.1,224165
-0.357869,1.75624,12999.6,112824,0,4655.43,974225,75944.3,151652
-0.357869,2.25022,12889.9,101451,0,4834.8,833846,51794.5,145396
-0.357869,2.7442,2006.12,20389.2,168.122,123497,541730,47001,70812.4
-0.357869,3.23818,66876.8,56562.6,2946.88,0.00380677,823925,78056.6,109738
-0.357869,3.73216,14137.5,33087.4,0.625909,886.657,741052,64966.6,89030.7
-0.357869,4.22614,7449.48,24089.7,710.036,88989.6,565777,39216.9,60897.2
-0.357869,4.72012,7339.28,36109.9,1202.29,72507,625822,29945.4,82335.9
-0.357869,5.2141,37883.4,47902.5,0.341799,0.00634926,690809,59449.7,81303.1
-0.357869,5.70808,20056.6,40018.6,4493.3,0.00181508,673213,56658.3,79491.1
-0.357869,6.20206,36809.8,66577.9,0.293576,0.00402145,615821,68826.9,59943.6
-0.357869,6.69604,45046,100709,0.29782,0.00386977,627016,63449,70388.3
-0.357869,7.19002,47249.9,90277.4,0.309456,0.004678,642818,48373.1,95847.5
-0.357869,7.68399,45876.5,82232.5,0.34138,0.00570158,701756,58482.7,92617.5
-0.357869,8.17797,2305.34,39927.5,0.323968,0.00671125,663683,74709.2,66034.2
-0.357869,8.67195,29621.3,85897.3,0.342287,0.00378526,690819,72478.8,69749.2
-0.357869,9.16593,46852.5,106851,0.320925,0.00351645,687621,65167.1,74586.9
-0.357869,9.65991,23394.1,69008.5,0.308452,0.00534803,661043,45325.8,89758.1
0.138418,-7.13538,70361.7,109570,0.322663,0.00455213,873855,42569.6,148754
0.138418,-6.6414,47513.5,108284,0.459181,0.00606643,874843,40972.4,152855
0.138418,-6.14743,65550,152102,0.393873,0.00505207,821526,51760.3,130310
0.138418,-5.65345,50993.8,138132,0.374946,0.00448099,816579,58120.3,119820
0.138418,-5.15947,0.00273971,59428.5,0.348153,0.0100296,808727,100387,88095.3
0.138418,-4.66549,7448.15,45337.9,0,115784,632488,29064.2,110965
0.138418,-4.17151,14201,82243.5,0.241767,0.00495221,538504,93196.2,51228.6
0.138418,-3.67753,56402.6,106563,0.402622,0.00658172,784194,75598.3,128453
0.138418,-3.18355,111949,126866,0.431969,0.00492774,881941,83800.7,144174
0.138418,-2.68957,93766.4,87816.2,0.411483,0.00611672,967571,96309,149307
0.138418,-2.19559,0.00823319,0,6190.35,0,1.24375e+06,54709.6,264842
0.138418,-1.70161,90045.9,101598,0.424473,0.00476512,893686,89532.1,137862
0.138418,-1.20763,56595,54658.1,0.365741,0.00527524,731372,67892.8,121210
0.138418,-0.713653,8413.6,29197.3,786.921,102216,676052,34544.5,103576
0.138418,-0.219674,0.00167922,0,0,168092,505290,82650.1,61455.4
0.138418,0.274305,0.002995,0,0,701887,604165,108054,66822.7
0.138418,0.768285,0.0120695,0,0.268128,138147,765667,366590,0
0.138418,1.26226,0.00476118,0,0.248457,0.0192582,596688,46175.5,88980.2
0.138418,1.75624,7460.2,43095,0,5448.26,418522,20795.3,74846.5
0.138418,2.25022,0.000190809,59102.5,0,1433.51,424792,34095.3,59280.1
0.138418,2.7442,9403.14,85192.9,0,16660.4,718747,44335.8,108350
0.138418,3.23818,76792.5,42140.6,0.400669,0.00632816,820771,70563.3,124173
0.138418,3.73216,20292.7,76711.5,2275.19,8382.69,692872,51493.6,87746.3
0.138418,4.22614,0.00110801,0,2882.34,97410.1,579901,54758.9,60115.3
0.138418,4.72012,57458.6,53167.7,0.310258,0.00392682,645114,52375.1,86188
0.138418,5.2141,8112.33,37974.8,0,86915.5,682643,28270.8,87658.3
0.138418,5.70808,7364.46,46236.7,320.17,40197,638113,37881.1,82258.7
0.138418,6.20206,30643.6,80463.4,0.332406,0.0043658,676113,67498.4,64812
0.138418,6.69604,44153.1,95667.5,0.299574,0.0037019,611246,36163.7,93311.3
0.138418,7.19002,16110,81694.8,0.31019,0.00451064,649215,82948,54158
0.138418,7.68399,67480.6,130429,0.383743,0.00369501,768505,50105.3,108141
0.138418,8.17797,40583.6,67774.6,0.334807,0.0038641,678151,46301.6,89501.7
0.138418,8.67195,0.00757652,0,17086.1,27191.3,633343,30397.7,87459
0.138418,9.16593,55064.4,72678.2,0.373021,0.00214314,730831,57272,85699.5
0.138418,9.65991,10867.8,54381.4,623.588,0,654942,40633.6,89262.4
0.634704,-7.13538,101560,50504.6,0.445497,0.00210646,820550,22867.9,144572
0.634704,-6.6414,43829.5,74863,0.408432,0.00655493,823013,115871,68930.1
0.634704,-6.14743,17121.9,89965.4,0.407542,0.0067885,848212,128117,59837.5
0.634704,-5.65345,80340.7,182006,0.451001,0.00559056,954059,58847,145375
0.634704,-5.15947,86681.1,70787.1,0.453658,0.00594485,1.05343e+06,81773.4,155180
0.634704,-4.66549,30310.8,100063,0.402996,0.0083964,893701,54930.2,155831
0.634704,-4.17151,126849,276605,0.411622,0.00159164,819733,15083.8,232282
0.634704,-3.67753,110780,246180,0.394993,0.00292308,806880,30971.2,209014
0.634704,-3.18355,57253.2,162840,0.429324,0.00520167,937722,115061,123311
0.634704,-2.68957,83696.3,125676,0.556367,0.0104052,1.12242e+06,105963,154999
0.634704,-2.19559,1051.84,0,1175.74,343946,676398,45815,96052.5
0.634704,-1.70161,0.00402256,4347.41,0,742609,519190,79161,76386.9
0.634704,-1.20763,16366.5,83101.4,0,2834.16,744681,26256.2,158230
0.634704,-0.713653,30447.2,25969.2,0.276239,0.00357456,615317,73131.5,98658.1
0.634704,-0.219674,6631.92,7161.52,0,176296,703954,49137.3,123867
0.634704,0.274305,0.000226417,9396.47,489.891,295353,758583,53676.1,117961
0.634704,0.768285,0.00694485,0.0196885,6959,0,742144,62220.3,101074
0.634704,1.26226,0.00144785,0,0,359864,634375,115950,80043.1
0.634704,1.75624,13899.3,61068.5,3824.39,29274.8,541992,29825.9,91791.9
0.634704,2.25022,8919.03,52459.1,80.1316,125880,813208,54197.5,108920
0.634704,2.7442,79667.9,36930.3,0.191076,0.00580206,461494,16482.7,94414.3
0.634704,3.23818,110259,19737.8,0.244964,0.00549511,619873,40678.6,86534.3
0.634704,3.73216,99080.2,0,0.224824,0.00366412,605567,38738.3,80440.9
0.634704,4.22614,56418.7,21241.5,0.243265,0.00468453,588581,53188.5,75468.6
0.634704,4.72012,36173.3,19200.7,11914.2,0.00260749,664502,61412.2,67709.4
0.634704,5.2141,56864.2,67012.1,0.340188,0.00383121,675418,50616.8,93276.9
0.634704,5.70808,37779.9,53537.5,0.349344,0.00350566,671635,50972.5,88049.1
0.634704,6.20206,50420.9,67013.5,0.339905,0.00269435,616006,43424.1,89018.4
0.634704,6.69604,63958.9,81186.1,0.364226,0.00319548,695483,27871.3,119171
0.634704,7.19002,100320,25433.1,782.277,466.628,631751,36065.9,73232.5
0.634704,7.68399,60375.8,88678.9,0.390713,0.00220677,738547,46565.3,101638
0.634704,8.17797,53444,108333,0.346118,0.00334864,671029,11743.9,125000
0.634704,8.67195,19538.1,58088.3,0.325438,0.00553892,644178,50021.3,92136.5
0.634704,9.16593,70594.1,100264,0.274829,0.00215327,700523,79145.1,66291.6
0.634704,9.65991,56338.5,85321.7,0.21106,0.00334709,776181,57531.5,100429
1.13099,-7.13538,68702.9,87701.2,0.419255,0.00328229,792100,57442.2,123267
1.13099,-6.6414,56356.6,86132.4,0.416552,0.00382394,799025,58195.1,125326
1.13099,-6.14743,4646.25,56389.6,0.444105,0.00891808,877396,96437.5,93511.5
1.13099,-5.65345,30530.3,84070.1,0.483586,0.00787158,949682,62738.2,140087
1.13099,-5.15947,87310.5,177343,0.573372,0.00999018,1.21962e+06,96960.4,176330
1.13099,-4.66549,85744.8,172481,0.548996,0.0105736,1.1754e+06,113505,158192
1.13099,-4.17151,76622.7,172587,0.41945,0.00523195,807345,54318.7,167704
1.13099,-3.67753,53620.8,86882.5,0.386742,0.00538898,751354,68384.8,142422
1.13099,-3.18355,90817.6,129493,0.472924,0.00544285,905413,78699.2,159703
1.13099,-2.68957,25177.7,90466.2,1006.89,11514.6,950933,59028.9,160036
1.13099,-2.19559,62357.3,88027,0.394666,0.00147873,816807,67730.1,102762
1.13099,-1.70161,29926.8,72301.5,1954.11,0.000459458,869569,58358.8,154250
1.13099,-1.20763,182940,52930.4,1321.7,0,1.02831e+06,67589.1,163471
1.13099,-0.713653,204180,109803,1271.11,0.00390204,921093,45350.1,172830
1.13099,-0.219674,147362,56555.4,49.0677,0.00659852,1.10859e+06,110372,167469
1.13099,0.274305,0.000370502,436878,7615.07,19913.7,1.10677e+06,104500,152524
1.13099,0.768285,209536,0,0,0,953203,83591,128869
1.13099,1.26226,138566,34602.9,0.342837,0.00705982,884419,41930.7,130747
1.13099,1.75624,34226.2,129001,0,0.00490013,554071,7571.35,121906
1.13099,2.25022,71625.9,218399,0.225722,0.00568947,533288,2552.09,129658
1.13099,2.7442,10934.9,119598,1676.14,18401.7,509543,3217.06,121205
1.13099,3.23818,40854.8,174889,4201.91,0.00064079,528561,0,148524
1.13099,3.73216,124107,40495.5,1432.06,12322.6,535915,27773,77513.4
1.13099,4.22614,287285,104314,106.787,0,593007,26152.1,78860.2
1.13099,4.72012,55642,180373,0.284516,0.00420463,603574,29777.2,108045
1.13099,5.2141,37992.7,105527,0.289333,0.00447339,583020,13591,120413
1.13099,5.70808,38747.9,92019.2,0.337178,0.00480713,656750,23751.3,121395
1.13099,6.20206,49445,77071.1,0.193762,0.00228145,544524,44446.6,74801.3
1.13099,6.69604,5.0806e-05,0,0,135275,554310,27704.7,78646.4
1.13099,7.19002,12625.1,26495.2,0,1929.25,578028,35369.1,81495.3
1.13099,7.68399,36799.2,94153.8,0.375761,0.00497894,722036,18758.8,143197
1.13099,8.17797,33357.5,63262.3,0.327049,0.00321667,638921,50661.3,89630.8
1.13099,8.67195,8443.49,58026.1,0,8691.16,542451,29961.4,96603.4
1.13099,9.16593,57448.2,120155,0.296644,0.00282643,575242,17883.5,121554
1.13099,9.65991,59168.5,109763,0.368075,0.0028539,730468,52836.6,110477
1.62728,-7.13538,68007.6,92163.7,0.309884,0.00310881,616957,50882.7,99168.3
1.62728,-6.6414,60194.9,85349.4,0.31474,0.00266747,617505,48432.7,95707
1.62728,-6.14743,73711.5,103025,0.395335,0.00376431,777844,56117.6,121781
1.62728,-5.65345,117244,65543.8,0.401075,0.00188952,786260,47471.7,104702
1.62728,-5.15947,80385.5,130977,0.572404,0.00496372,1.01377e+06,82261.4,150195
1.62728,-4.66549,161358,355593,0,0.000800961,1.19401e+06,24500.4,302895
1.62728,-4.17151,67404.3,141302,0.446572,0.00500873,874630,46069.5,172003
1.62728,-3.67753,25594.2,86097.6,0.364113,0.00803121,789610,69853.1,131667
1.62728,-3.18355,36890.8,119754,0.381973,0.00951828,833989,45323.6,182726
1.62728,-2.68957,10910.9,92388.8,0,0,891858,49112.7,150267
1.62728,-2.19559,9488.15,27516,2899.69,1440.53,918931,64701.7,131236
1.62728,-1.70161,88733.4,90635,0.495457,0.0066196,1.07402e+06,91462.4,161351
1.62728,-1.20763,197010,38364.3,0,0,1.15523e+06,66344.2,176822
1.62728,-0.713653,14724.2,145443,0,3127.67,1.01076e+06,36747.5,203816
1.62728,-0.219674,16791.3,156791,0,20735.4,1.03643e+06,33208.3,201737
1.62728,0.274305,141716,95730.4,0.506281,0.00872131,1.31723e+06,0,387216
1.62728,0.768285,145995,139196,0.496553,0.010868,1.22269e+06,23654.7,213118
1.62728,1.26226,129179,195012,0.444506,0.00872033,1.07803e+06,0,265824
1.62728,1.75624,166041,369502,0.297679,0.0015658,698047,19542.1,130690
1.62728,2.25022,24269.4,181980,6923,28014.4,590733,0,144957
1.62728,2.7442,8915.89,136906,2971.15,31067.7,528240,0,134226
1.62728,3.23818,23465.9,176729,32835.1,37608.9,547844,0.0198329,220067
1.62728,3.73216,21870.6,151793,2673.73,8438.7,615873,0,129815
1.62728,4.22614,8.92223e-05,512443,0,238.92,703710,7001.02,161773
1.62728,4.72012,0.00562303,88302,0,0.0011103,582277,21115.3,100243
1.62728,5.2141,93781.3,231585,0.298248,0.000699286,566144,3204.93,141474
1.62728,5.70808,64820.5,161942,0.30753,0.00195391,594904,8933.35,131720
1.62728,6.20206,59526.6,120483,0.301839,0.00191198,549914,6210.17,132157
1.62728,6.69604,69507.6,141087,0.307107,0.0013529,545932,9526.19,125901
1.62728,7.19002,47492.2,87937.6,0.306991,0.00268867,576440,39489.4,81127.2
1.62728,7.68399,24779.1,55226.1,0.345458,0.00506054,696727,63094.3,93990
1.62728,8.17797,21527.2,62426.9,0.267115,0.00330745,540203,33932.5,81623.5
1.62728,8.67195,23719.8,69984.7,0.281135,0.00408527,560086,28899.1,105664
1.62728,9.16593,3445.75,34261,0.264031,0.00623851,549527,62968,69998.9
1.62728,9.65991,25904.8,44492.6,0.244102,0.00512124,491371,41246.9,78741.6
2.12356,-7.13538,39370,75515.2,0.334909,0.00544323,673603,43578.1,113114
2.12356,-6.6414,33255.3,74660.8,0.304136,0.00502218,615722,15241.4,136330
2.12356,-6.14743,10467.7,43939.7,0,1036.23,520590,42459.4,95060.2
2.12356,-5.65345,70943.2,93865.9,0.389157,0.00361515,790486,63600.9,118601
2.12356,-5.15947,46217,87828.2,0.338748,0.00435507,637945,32885.6,123775
2.12356,-4.66549,76906.9,120219,0.488989,0.00487886,887505,61735.6,149738
2.12356,-4.17151,65144.8,103819,0.414618,0.00386286,756945,51540.4,125132
2.12356,-3.67753,86439.1,198445,0.374568,0.00254543,754436,32067.9,147689
2.12356,-3.18355,158997,45923.4,0,0,886248,46766.5,129150
2.12356,-2.68957,112684,308311,0.41188,0.00349588,887071,10277.1,226550
2.12356,-2.19559,18720.4,81886.4,0,0,824401,14456.8,159102
2.12356,-1.70161,94478.4,85641.1,7823.18,2886.39,720600,0.00213149,202440
2.12356,-1.20763,19137.8,209016,2399.26,2268.56,860679,0.00192604,188854
2.12356,-0.713653,220496,78982.9,5332.65,37768.9,1.03905e+06,0,196922
2.12356,-0.219674,167340,78896.6,7889.88,36399.7,1.00127e+06,49770.6,145501
2.12356,0.274305,10666.4,161180,6159.63,39433.8,1.06192e+06,4051.39,239323
2.12356,0.768285,197371,0.558348,13531.7,19781.2,1.15262e+06,12507.3,257064
2.12356,1.26226,40640,315122,11031.9,24015.1,1.15738e+06,486.748,267081
2.12356,1.75624,15745.9,199640,9694.87,35203.5,717597,0,182417
2.12356,2.25022,9182.6,407680,0.000817414,128305,535600,61931.7,174512
2.12356,2.7442,0.00277819,187180,14096.3,36749.1,702430,0,179336
2.12356,3.23818,136760,75131.2,4534.67,44823.6,775709,0,151300
2.12356,3.73216,0.00136414,127579,6804.53,18543.8,788344,163144,72795.3
2.12356,4.22614,0.00556333,233482,8202.8,40692.2,805965,12237.2,178203
2.12356,4.72012,3375.65,100274,1297.21,3296.35,603612,10975.8,123067
2.12356,5.2141,42423.8,182421,183.628,0.000626,552714,48716.2,82648.4
2.12356,5.70808,72347,146421,0.302037,0.00134395,551851,7149.16,129063
2.12356,6.20206,28619.7,79642.8,0.285507,0.00295914,497494,12637.1,102182
2.12356,6.69604,39377,82365,0.2945,0.00186286,526226,29828.8,86755.2
2.12356,7.19002,49885.9,98917.7,0.320213,0.00219691,553500,8746.56,137757
2.12356,7.68399,84687.4,202898,0.346203,7.06808e-05,666162,54329.7,86892.2
2.12356,8.17797,13506.7,0.000616541,0,113852,453041,35734.2,67106.8
2.12356,8.67195,69202,114486,0.18797,0.00170161,571114,15854.3,119968
2.12356,9.16593,14687.9,56437.7,0.329469,0.00623453,629823,50088.9,105586
2.12356,9.65991,6203.3,49641.4,0.374826,0.00746849,742608,108438,72285.1
2.61985,-7.13538,13723.2,54541.7,0,0.000374984,523325,33047.1,85315.9
2.61985,-6.6414,35773,64085.4,1.82318,0.00333732,583164,43286.1,93018.3
2.61985,-6.14743,50671.2,59907.8,0.309915,0.00259184,610871,52394.8,86099.6
2.61985,-5.65345,43346.1,66975.9,0.356514,0.00660211,723713,73829.4,90419.5
2.61985,-5.15947,0.00253905,43402.1,0.303986,0.00804277,660933,65518,80947.3
2.61985,-4.66549,9279.55,57172,0,0,596141,39117,99598.8
2.61985,-4.17151,77187,51521.4,0.299922,0.00202141,606454,4794.4,129981
2.61985,-3.67753,67123.4,188765,0.328898,0.00319616,649308,20373.8,139200
2.61985,-3.18355,67058.7,364524,21.6249,0.000114781,665479,20926,165415
2.61985,-2.68957,14843.5,102735,269.191,0,777602,9485.26,180131
2.61985,-2.19559,0.00184568,130428,7157.71,0,837695,0,180848
2.61985,-1.70161,8640.31,118594,4277.56,34983.8,679800,5526.32,171892
2.61985,-1.20763,76684.7,97096.4,7660.16,57573.8,659622,0.00426317,164105
2.61985,-0.713653,556957,0.0141784,6513.07,56932.9,917585,46935.4,134608
2.61985,-0.219674,186826,77331.3,2610.95,41231.1,916946,0,181853
2.61985,0.274305,0.00468864,406734,9042.63,26312.7,1.07639e+06,9055.33,255916
2.61985,0.768285,35972.4,250846,9153.82,29425.2,1.23075e+06,181422,105467
2.61985,1.26226,274936,203683,5642.96,0.00119948,1.26432e+06,60594.4,216999
2.61985,1.75624,11974,558333,0.000807037,181210,844767,97653.9,232224
2.61985,2.25022,148103,98260.7,8712.61,50502.6,885624,2429.01,180485
2.61985,2.7442,146532,78618.7,6005.73,51826.3,875328,3641.04,156171
2.61985,3.23818,8751.1,334573,13083.4,9332.08,931592,0.000341658,218472
2.61985,3.73216,15016.5,126258,336.152,54919.7,944280,0,210467
2.61985,4.22614,10803.3,161563,2072.62,15239.3,901306,17839,193791
2.61985,4.72012,10540.1,295532,0.000107358,33794.9,743256,86536.9,168562
2.61985,5.2141,6223.92,240856,3379.8,0.00114364,593843,11191.4,134608
2.61985,5.70808,8513.28,66421.9,430.762,2183.1,583622,8922.55,116864
2.61985,6.20206,53805.9,95751.8,0.319942,0.00229352,534646,13961.2,108842
2.61985,6.69604,5901.59,41997.9,0,2759.76,418328,26840.7,68715.5
2.61985,7.19002,59822.2,123205,0.314062,0.00157548,562963,7574.05,127521
2.61985,7.68399,6122.19,27432.7,0,0.000481044,517336,37307.1,70270.2
2.61985,8.17797,10770.6,50296,0,5319.62,514993,32820.9,79956
2.61985,8.67195,48808.2,75110.9,0.374062,0.00292879,669190,51255.4,103852
2.61985,9.16593,29440.7,79840.7,0.394804,0.00608438,763824,66765.2,109579
2.61985,9.65991,41389.7,55940,0.361128,0.00221104,636833,57608.6,99749.8
3.11613,-7.13538,26300,88604.4,0.309183,0.0043397,628089,51427,96065.6
3.11613,-6.6414,37418.2,65845.1,0.629401,0.00429784,654768,51500.9,103481
3.11613,-6.14743,62367.5,81908.1,0.354733,0.0037273,716834,55559.9,111165
3.11613,-5.65345,50443.8,63485.5,0.406368,0.00474316,824524,71650.1,115254
3.11613,-5.15947,52282,68644,0.372773,0.00465748,739473,65730.3,101573
3.11613,-4.66549,45910.6,62729.6,0.312527,0.00387345,625517,52808.8,95933.1
3.11613,-4.17151,41184.5,80371,0.318956,0.00317107,614084,49384.9,96810.2
3.11613,-3.67753,44858.6,75409.1,0.366762,0.00462404,710116,59159,105652
3.11613,-3.18355,95588.7,183015,0,0.00475343,878668,72006.7,149205
3.11613,-2.68957,0.000312532,732053,5183.62,0.00732075,777327,45772.3,158802
3.11613,-2.19559,430740,33412.1,2638.23,0.0725083,1.08483e+06,45876.1,181455
3.11613,-1.70161,0.00670765,471664,11450,31719.3,1.13788e+06,0,341935
3.11613,-1.20763,8866.59,166267,5158.01,0.00241611,976749,8331.76,230272
3.11613,-0.713653,105489,148890,6712.33,0.013255,1.03324e+06,0,175299
3.11613,-0.219674,168827,85824.1,5075.43,37105.8,981558,3375.68,197806
3.11613,0.274305,8340.4,134785,6986.59,38936.5,997854,14827,218389
3.11613,0.768285,0.00793337,488320,19582.5,73696,1.23983e+06,3871.01,345060
3.11613,1.26226,0.00746176,345479,20172.6,48268.1,1.21138e+06,4268.27,325241
3.11613,1.75624,0.00780568,655792,13741.4,2867.23,964530,9235,221359
3.11613,2.25022,9892.45,34507.8,1119.43,70216.3,717966,0,163657
3.11613,2.7442,12281.5,89721,3324.7,25316.8,683879,0,155129
3.11613,3.23818,0.00556636,154587,8047.22,53002.3,786296,1275.74,232011
3.11613,3.73216,0.00676094,290176,3505.61,47543.6,922351,4459.73,226338
3.11613,4.22614,0.000861441,237661,0,0.000911628,959625,50505.6,150622
3.11613,4.72012,0.00439594,369746,4589.99,20166.8,915076,39839.8,175305
3.11613,5.2141,73238.1,144466,0.38435,0.00207091,648654,14710.1,140207
3.11613,5.70808,97675.2,184313,0,0.000744503,619472,7979.67,142590
3.11613,6.20206,64671.8,113590,0.34492,0.00261223,634025,37002.9,103353
3.11613,6.69604,49484,85461,0.290179,0.00186867,513724,20109.1,97336.3
3.11613,7.19002,68824.3,130096,0.338308,0.00145847,604259,18010.8,124141
3.11613,7.68399,50381.3,101969,0.348643,0.00348041,683120,36222.9,112252
3.11613,8.17797,65971.8,130269,0.340449,0.00280476,650319,30777.3,118927
3.11613,8.67195,9054.24,46480.3,0,1496.14,713813,48795.8,105337
3.11613,9.16593,119770,76861.1,0.396966,0.000909634,783238,15501.4,147444
3.11613,9.65991,20932.9,78644.1,0.329031,0.00607303,664703,35726.1,118672
3.61242,-7.13538,46521.9,67771.4,0.34068,0.00444407,694486,62234.2,101032
3.61242,-6.6414,52428.3,85077.1,0.312391,0.00410841,665457,58454.9,98713.6
3.61242,-6.14743,152450,30657.5,1805.28,244.068,678091,43646,92962.8
3.61242,-5.65345,32254.2,67475.9,0.313599,0.00869875,722756,65757.9,99422.1
3.61242,-5.15947,43788.8,124271,0.337634,0.00487366,789724,61744.1,128836
3.61242,-4.66549,62111.2,57334.4,0.301755,0.00803541,675123,83661.9,77277.9
3.61242,-4.17151,53191.7,70984,0.284286,0.00369482,592330,51347.8,93099.7
3.61242,-3.67753,45308.2,74771.9,0.36091,0.0052583,730862,58172.6,114125
3.61242,-3.18355,102754,278857,0.457718,0.00578823,895676,29347.1,183389
3.61242,-2.68957,134421,437118,0.479374,0.00284292,958800,42502.9,194452
3.61242,-2.19559,130668,56482.5,0,0,825615,42424.3,126693
3.61242,-1.70161,0.000692225,119498,12537.4,0.0216789,852539,58236.2,91703.6
3.61242,-1.20763,0,119423,2068.73,9389.75,984091,20100.1,213286
3.61242,-0.713653,134129,79701,3235.02,27022.7,1.04569e+06,18342.6,189730
3.61242,-0.219674,137787,77637,0,0,982194,28338.8,157524
3.61242,0.274305,215933,63512,851.777,531.629,705789,7557.17,135205
3.61242,0.768285,13575.4,102390,627.597,4527.54,838826,20062.5,174445
3.61242,1.26226,7275.34,101782,1177.13,10548.5,897950,27446.3,179200
3.61242,1.75624,109165,210574,0.473207,0.00522911,923082,59143,169871
3.61242,2.25022,98075.2,314117,0.461174,0.00490513,937849,26205.9,201928
3.61242,2.7442,114384,190998,0.282298,0.0029316,777761,23050.1,167234
3.61242,3.23818,54102.1,148232,0.335533,0.00373779,625911,16525.4,137458
3.61242,3.73216,97361.4,37505.1,0,2687.82,636516,24873.2,101470
3.61242,4.22614,65227.8,105593,0.345131,0.0027063,646587,43519.8,108013
3.61242,4.72012,45956.4,67775.7,0.30848,0.00267338,564251,52414,80173.1
3.61242,5.2141,6843.18,57242.2,0,0.000230596,445621,28310.2,70327.5
3.61242,5.70808,0.000840738,18239,0,0.00296694,722258,54125.2,105418
3.61242,6.20206,136711,80048.3,0.467591,0.00176112,962287,67542.8,121506
3.61242,6.69604,7375.7,66344.1,0,896.441,748115,47783.3,108149
3.61242,7.19002,91675.4,53883.1,0.346887,0.00233431,880815,53312.6,115963
3.61242,7.68399,87349,52624.7,0.426056,0.00222847,854216,20902.8,140429
3.61242,8.17797,40396.1,112042,0.425432,0.00348421,794186,66557.2,105130
3.61242,8.67195,0.00572454,172044,283.239,59647.8,748413,55563.9,73036.2
3.61242,9.16593,102797,57035.1,0.400854,0.000898704,785404,3540.86,145994
3.61242,9.65991,4331.73,36045.6,0,126086,640378,35440.3,92172.9
4.10871,-7.13538,30005.5,78774.6,0.33064,0.00623202,702032,32090,131211
4.10871,-6.6414,22254.5,84291.4,0.36096,0.0062196,738742,44635.8,124081
4.10871,-6.14743,35467.4,112233,0.403783,0.00655214,823181,44127.6,143099
4.10871,-5.65345,45371.9,124376,0.405719,0.00582101,788532,30058.6,158272
4.10871,-5.15947,58408.2,109935,0.393354,0.00489392,722659,20428.9,162932
4.10871,-4.66549,52394.9,119596,0.314386,0.00376525,628832,27020.9,126607
4.10871,-4.17151,22229.9,74458,0.284371,0.00554399,616195,30861.7,116866
4.10871,-3.67753,50954.1,122980,0.329552,0.00418724,699700,37691.3,117255
4.10871,-3.18355,73086.9,172074,0.354938,0.0023778,704870,18753.1,145045
4.10871,-2.68957,24324.4,90289,0.361849,0.00666877,738912,45604.5,122904
4.10871,-2.19559,63482.4,172191,0.349416,0.00456772,740748,26100.8,159709
4.10871,-1.70161,119582,296046,0.415431,0.00223426,855331,23806.6,195477
4.10871,-1.20763,80922.3,214944,0.452858,0.00588753,941510,40519.9,179460
4.10871,-0.713653,106865,272446,0.510965,0.00526087,1.02006e+06,30973.4,218827
4.10871,-0.219674,84868.9,139257,0.419752,0.0046291,854063,67722.8,139280
4.10871,0.274305,71940.6,84813,0.312614,0.00296639,604489,46261.5,93885.9
4.10871,0.768285,46353.4,63796.2,0.273388,0.00281345,513885,39763,77908.2
4.10871,1.26226,9439.4,66483,0,0.000563234,516944,29842.3,84991.9
4.10871,1.75624,36147,92985,0.327406,0.00368038,595351,11214.3,127726
4.10871,2.25022,28178.3,71025.6,0.340128,0.00451092,659950,58860.8,88676.1
4.10871,2.7442,5149.49,33396.3,0,67581.9,524659,31034,73715.2
4.10871,3.23818,53294.5,75505.6,0.29871,0.00227899,552154,40304.4,90369.2
4.10871,3.73216,9444.46,38458.8,0.30736,0.0051819,595951,49541.9,81540.2
4.10871,4.22614,7389.36,63858.2,0,6618.58,640703,38494,99096.3
4.10871,4.72012,4176.23,73482,0,1355.78,666943,36861.3,110014
4.10871,5.2141,14645.8,68257.6,0,2049.75,821028,65144,141371
4.10871,5.70808,205910,102766,0.523227,0.00191873,1.11654e+06,80523.6,143024
4.10871,6.20206,97599.9,134253,0.516138,0.00468493,1.1694e+06,122000,140780
4.10871,6.69604,96653.6,112382,0.511891,0.00483619,1.12505e+06,112229,144439
4.10871,7.19002,154061,72413.7,0.490167,0.00214764,1.00158e+06,67106.8,134361
4.10871,7.68399,79937.9,17580.5,0.454763,0.00330963,910754,66212.3,111324
4.10871,8.17797,130330,72042.7,0.432169,0.00123896,837373,59682.4,100698
4.10871,8.67195,7902.41,161625,0.000446411,30727.4,672972,75999.4,138554
4.10871,9.16593,15176.7,29546.2,0,1550.4,684329,43290.9,103002
4.10871,9.65991,33333.5,102529,0.356791,0.0033629,709232,54372.6,96179.7